{
  "resourceType": "Bundle",
  "type": "transaction",
  "entry": [
    {
      "resource": {
        "resourceType": "Patient",
        "id": "234",
        "meta": {
          "profile": [
            "https://www.medizininformatik-initiative.de/fhir/core/modul-person/StructureDefinition/Patient"
          ]
        },
        "identifier": [
          {
            "use": "usual",
            "type": {
              "coding": [
                {
                  "system": "http://terminology.hl7.org/CodeSystem/v2-0203",
                  "code": "MR"
                }
              ]
            },
            "system": "https://www.example.org/fhir/sid/patienten",
            "value": "234-identifier",
            "assigner": {
              "display": "Charité – Universitätsmedizin Berlin",
              "identifier": {
                "system": "http://fhir.de/NamingSystem/arge-ik/iknr",
                "value": "111101010"
              }
            }
          },
          {
            "use": "official",
            "type": {
              "coding": [
                {
                  "system": "http://fhir.de/CodeSystem/identifier-type-de-basis",
                  "code": "GKV"
                }
              ]
            },
            "system": "http://fhir.de/NamingSystem/gkv/kvid-10",
            "value": "A999999999",
            "assigner": {
              "identifier": {
                "use": "official",
                "system": "http://fhir.de/NamingSystem/arge-ik/iknr",
                "value": "260326822"
              }
            }
          }
        ],
        "name": [
          {
            "use": "official",
            "family": "TestFamily",
            "given": [
              "TestNameOne",
              "TestNameTwo"
            ]
          }
        ],
        "address": [
          {
            "type": "both",
            "line": [
              "Teststraße 2"
            ],
            "city": "Köln",
            "postalCode": "50823",
            "country": "DE"
          }
        ],
        "gender": "other",
        "_gender": {
          "extension": [
            {
              "url": "http://fhir.de/StructureDefinition/gender-amtlich-de",
              "valueCoding": {
                "system": "http://fhir.de/CodeSystem/gender-amtlich-de",
                "code": "D",
                "display": "divers"
              }
            }
          ]
        },
        "birthDate": "1998-09-19"
      },
      "request": {
        "method": "PUT",
        "url": "Patient/234"
      }
    },
    {
      "resource": {
        "resourceType": "MedicationAdministration",
        "id": "234567",
        "meta": {
          "profile":  [
            "https://www.medizininformatik-initiative.de/fhir/core/modul-medikation/StructureDefinition/MedicationAdministration"
          ]
        },
        "dosage": {
          "dose": {
            "system": "http://unitsofmeasure.org",
            "value": 85,
            "code": "mg",
            "unit": "mg"
          },
          "rateRatio": {
            "denominator": {
              "system": "http://unitsofmeasure.org",
              "value": 1,
              "code": "h",
              "unit": "hour"
            },
            "numerator": {
              "system": "http://unitsofmeasure.org",
              "value": 250,
              "code": "mL",
              "unit": "milliliter"
            }
          },
          "route": {
            "coding":  [
              {
                "code": "20045000",
                "system": "http://standardterms.edqm.eu",
                "display": "Intravenous use"
              }
            ]
          }
        },
        "effectivePeriod": {
          "end": "2020-01-06T11:20:00.000+00:00",
          "start": "2020-01-06T10:20:00.000+00:00"
        },
        "medicationReference": {
          "reference": "Medication/123"
        },
        "status": "completed",
        "subject": {
          "reference": "Patient/234"
        }
      },
      "request": {
        "method": "PUT",
        "url": "MedicationAdministration/234567"
      }
    },
    {
      "resource": {
        "resourceType": "Medication",
        "id": "123",
        "meta": {
          "profile":  [
            "https://www.medizininformatik-initiative.de/fhir/core/modul-medikation/StructureDefinition/Medication"
          ]
        },
        "code": {
          "coding":  [
            {
              "system": "http://fhir.de/CodeSystem/ifa/pzn",
              "code": "02758994",
              "display": "dolomo® TN"
            },
            {
              "system": "http://fhir.de/CodeSystem/bfarm/atc",
              "code": "N02BE51",
              "display": "Paracetamol, Kombinationen exkl. Psycholeptika"
            }
          ]
        },
        "form": {
          "coding":  [
            {
              "system": "http://standardterms.edqm.eu",
              "code": "10219000",
              "display": "Tablet"
            }
          ]
        },
        "amount": {
          "numerator": {
            "value": 27,
            "unit": "Tablet",
            "system": "http://standardterms.edqm.eu",
            "code": "10219000"
          },
          "denominator": {
            "value": 1,
            "unit": "Package",
            "system": "http://unitsofmeasure.org",
            "code": "1"
          }
        }
      },
      "request": {
        "method": "PUT",
        "url": "Medication/123"
      }
    }
  ]
}
